{
  "resourceType": "Bundle",
  "id": "tests-patient-mom-a2-1-bundle",
  "type": "transaction",
  "entry": [ {
    "resource": {
      "resourceType": "Condition",
      "id": "condition-patient-mom-a2-1",
      "clinicalStatus": {
        "coding": [ {
          "system": "http://terminology.hl7.org/CodeSystem/condition-clinical",
          "version": "4.0.1",
          "code": "active",
          "display": "Active"
        } ]
      },
      "verificationStatus": {
        "coding": [ {
          "system": "http://terminology.hl7.org/CodeSystem/condition-ver-status",
          "version": "4.0.1",
          "code": "confirmed",
          "display": "Confirmed"
        } ]
      },
      "code": {
        "coding": [ {
          "system": "http://snomed.info/sct",
          "version": "3.1.0",
          "code": "77386006",
          "display": "Pregnant (finding)"
        } ]
      },
      "subject": {
        "reference": "Patient/patient-mom-a2-1",
        "display": "Eve Everywoman"
      },
      "onsetDateTime": "2020-12-03T10:00:00",
      "recordedDate": "2020-12-03T10:00:00",
      "recorder": {
        "reference": "Practitioner/midwife",
        "display": "Mabel Midwife"
      }
    },
    "request": {
      "method": "PUT",
      "url": "Condition/condition-patient-mom-a2-1"
    }
  }, {
    "resource": {
      "resourceType": "EpisodeOfCare",
      "id": "episodeofcare-patient-mom-a2-1",
      "status": "active",
      "type": [ {
        "coding": [ {
          "system": "http://terminology.hl7.org/CodeSystem/episodeofcare-type",
          "version": "4.0.1",
          "code": "hacc",
          "display": "Home and Community Care"
        } ]
      } ],
      "diagnosis": [ {
        "condition": {
          "reference": "Condition/condition-mom-a2-1-pregnancy"
        }
      } ],
      "patient": {
        "reference": "Patient/patient-mom-a2-1",
        "display": "Eve Everywoman"
      },
      "period": {
        "start": "2020-09-03T10:00:00",
        "end": "2021-06-03T10:00:00"
      }
    },
    "request": {
      "method": "PUT",
      "url": "EpisodeOfCare/episodeofcare-patient-mom-a2-1"
    }
  }, {
    "resource": {
      "resourceType": "GuidanceResponse",
      "id": "patient-mom-a2-1",
      "extension": [ {
        "url": "http://hl7.org/fhir/uv/cpg/StructureDefinition/inputParameters",
        "valueReference": {
          "reference": "Parameters/patient-mom-a2-1-input"
        }
      } ],
      "moduleCanonical": "http://fhir.org/guides/who/anc-cds/ANCRecommendationA2",
      "status": "success",
      "subject": {
        "reference": "Patient/patient-mom-a2-1"
      },
      "outputParameters": {
        "reference": "Parameters/patient-mom-a2-1-output"
      }
    },
    "request": {
      "method": "PUT",
      "url": "GuidanceResponse/patient-mom-a2-1"
    }
  }, {
    "resource": {
      "resourceType": "Observation",
      "id": "observation-mom-a2-1-edd",
      "status": "final",
      "code": {
        "coding": [ {
          "system": "http://loinc.org",
          "code": "11779-6",
          "display": "Delivery date Estimated from last menstrual period"
        } ]
      },
      "subject": {
        "reference": "Patient/patient-mom-a2-1"
      },
      "valueDateTime": "2021-06-03T10:00:00"
    },
    "request": {
      "method": "PUT",
      "url": "Observation/observation-mom-a2-1-edd"
    }
  }, {
    "resource": {
      "resourceType": "Observation",
      "id": "observation-mom-a2-1-hb",
      "meta": {
        "profile": [ "http://fhir.org/guides/who/anc-cds/StructureDefinition/hbobservation" ]
      },
      "status": "final",
      "category": [ {
        "coding": [ {
          "system": "http://hl7.org/fhir/observation-category",
          "code": "exam"
        } ]
      } ],
      "code": {
        "coding": [ {
          "system": "http://openmrs.org/concepts",
          "code": "165395AAAAAAAAAAAAAAAAAAAAAAAAAAAAAA",
          "display": "Haemoglobin measured from haemoglobinometer (g/dl)"
        } ]
      },
      "subject": {
        "reference": "Patient/patient-mom-a2-1",
        "display": "Eve Everywoman"
      },
      "effectivePeriod": {
        "start": "2020-12-03T10:00:00",
        "end": "2020-12-03T10:00:00"
      },
      "issued": "2020-12-03T10:00:00",
      "performer": [ {
        "reference": "Practitioner/midwife",
        "display": "Mabel Midwife"
      } ],
      "valueQuantity": {
        "value": 13.2,
        "unit": "g/dL",
        "system": "http://unitsofmeasure.org",
        "code": "g/dL"
      },
      "interpretation": [ {
        "coding": [ {
          "system": "http://terminology.hl7.org/CodeSystem/v3-ObservationInterpretation",
          "code": "I",
          "display": "Intermediate"
        } ]
      } ],
      "referenceRange": [ {
        "low": {
          "value": 10.5,
          "unit": "g/dl",
          "system": "http://unitsofmeasure.org",
          "code": "g/dL"
        },
        "high": {
          "value": 15,
          "unit": "g/dl",
          "system": "http://unitsofmeasure.org",
          "code": "g/dL"
        }
      } ]
    },
    "request": {
      "method": "PUT",
      "url": "Observation/observation-mom-a2-1-hb"
    }
  }, {
    "resource": {
      "resourceType": "Observation",
      "id": "observation-mom-a2-1-pregnancy-status",
      "status": "final",
      "code": {
        "coding": [ {
          "system": "http://loinc.org",
          "code": "82810-3",
          "display": "Pregnancy status"
        } ]
      },
      "subject": {
        "reference": "Patient/patient-mom-a2-1"
      },
      "valueCodeableConcept": {
        "coding": [ {
          "system": "http://loinc.org",
          "code": "LA15173-0",
          "display": "Pregnant"
        } ]
      }
    },
    "request": {
      "method": "PUT",
      "url": "Observation/observation-mom-a2-1-pregnancy-status"
    }
  }, {
    "resource": {
      "resourceType": "Parameters",
      "id": "patient-mom-a2-1-input",
      "parameter": [ {
        "name": "subject",
        "valueString": "Patient/patient-mom-a2-1"
      }, {
        "name": "Test_Inclusions",
        "valueBoolean": true
      }, {
        "name": "Test_Standard_Recommendation",
        "valueBoolean": true
      }, {
        "name": "Test_Anaemia_Recommendation",
        "valueBoolean": false
      }, {
        "name": "Test_High_Anaemia_Prevalence_Recommendation",
        "valueBoolean": false
      }, {
        "name": "Test_Intermittent_Recommendation",
        "valueBoolean": false
      } ]
    },
    "request": {
      "method": "PUT",
      "url": "Parameters/patient-mom-a2-1-input"
    }
  }, {
    "resource": {
      "resourceType": "Parameters",
      "id": "patient-mom-a2-1-output"
    },
    "request": {
      "method": "PUT",
      "url": "Parameters/patient-mom-a2-1-output"
    }
  }, {
    "resource": {
      "resourceType": "Patient",
      "id": "patient-mom-a2-1",
      "meta": {
        "profile": [ "http://fhir.org/guides/who/anc-cds/StructureDefinition/ancpatient" ]
      },
      "text": {
        "status": "generated",
        "div": "<div xmlns=\"http://www.w3.org/1999/xhtml\"><p><b>Generated Narrative with Details</b></p><p><b>id</b>: mom</p><p><b>meta</b>: </p><p><b>identifier</b>: 1000 (OFFICIAL)</p><p><b>active</b>: true</p><p><b>name</b>: Eve Everywoman (OFFICIAL)</p><p><b>telecom</b>: ph: 555-555-2003(MOBILE)</p><p><b>gender</b>: female</p><p><b>birthDate</b>: 1993-05-31</p><p><b>address</b>: 2222 Home Street(HOME)</p></div>"
      },
      "identifier": [ {
        "use": "official",
        "value": "1000"
      } ],
      "active": true,
      "name": [ {
        "use": "official",
        "family": "Everywoman",
        "given": [ "Eve" ]
      } ],
      "telecom": [ {
        "system": "phone",
        "value": "555-555-2003",
        "use": "mobile"
      } ],
      "gender": "female",
      "birthDate": "1993-05-31",
      "address": [ {
        "use": "home",
        "text": "2222 Home Street"
      } ]
    },
    "request": {
      "method": "PUT",
      "url": "Patient/patient-mom-a2-1"
    }
  } ]
}